{
  "@context": [
    "https://www.w3.org/2018/credentials/v1"
  ],
  "type": [
    "VerifiableCredential",
    "https://healthwallet.cards#covid19",
    "https://healthwallet.cards#presentation-context-online"],
  "issuer": "<<did:ion identifier for lab>>",
  "issuanceDate": "2020-05-01T11:59:00-07:00",
  "display": "COVID-19 Card for Eve Everywoman",
  "credentialSubject": {
    "id": "<<did:identifier for subject if known>>",
    "fhirVersion": "1.0.2",
    "fhirBundle":{
      "resourceType": "Bundle",
      "type": "collection",
      "entry": [{
        "fullUrl": "urn:uuid:643e199d-1aaf-49af-8a3b-c7ae375d11ce",
        "resource": {
          "resourceType": "Patient",
          "extension": [{
            "url": "https://github.com/TransparentHealth/800-63-3-trustmark#P",
            "valueCode": "P2"
          }],
          "name": [{
            "family": ["Everywoman"],
            "given": ["Eve"]
          }],
          "telecom": [{
            "system": "phone",
            "value": "000-000-0000",
            "use": "mobile"
          }]
        }
      }, {
        "fullUrl": "urn:uuid:4fe4f8d4-9b6e-4780-8ea5-6b5791230c85",
        "resource": {
          "resourceType": "DiagnosticReport",
          "effectiveDateTime": "2020-05-01",
          "subject": {
            "reference": "urn:uuid:643e199d-1aaf-49af-8a3b-c7ae375d11ce"
          },
          "result": [{
            "reference": "urn:uuid:911791c4-5131-44ba-85bd-8e6bdf652fd4"
          }],
          "conclusion": "Patient is currently COVID-19 positive."
        }
      }, {
        "fullUrl": "urn:uuid:911791c4-5131-44ba-85bd-8e6bdf652fd4",
        "resource": {
          "resourceType": "Observation",
          "effectiveDateTime": "2020-05-01",
          "subject": {
            "reference": "urn:uuid:643e199d-1aaf-49af-8a3b-c7ae375d11ce"
          },
          "code": {
            "coding": [{
                "system": "http://loinc.org",
                "code": "94756-4",
                "display": "SARS coronavirus 2 N gene [Presence] in Respiratory specimen by Nucleic acid amplification using CDC primer-probe set N1"
              }]
          },
          "valueCodeableConcept": {
            "coding": [{
                "system": "http://loinc.org",
                "code": "LA11882-0",
                "display": "Detected"
              }]
          }
        }
      }]
    } 
  }
}
